Folder: NN-for-SR-System-optimization/Data

File: El-Hamra.csv
Well,Date,Well,Tubing OD (in),Plunger Diameter (in),Pump Intake Depth (ft),Pump Intake Depth TVD (ft),Damp Up,Damp Down,Formation Depth (ft),Formation Depth TVD (ft),Tubing Pressure (psi (g)),Oil API (deg.API),Water Specific Gravity (Sp.Gr.H2O),Gas Specific Gravity (Sp.Gr.AIR),Gearbox Rating (in-lb),Measured Stroke Length (in),Rated HP (HP),Dynamometer Date,PPRL (lb),MPRL (lb),PPMPL (lb),MPMPL (lb),Polished Rod Power (HP),Plunger Stroke (in),SPM (spm),Pump Volumetric Fillage (%),Effective Plunger Stroke (in),Pump Displacement (BBL/D),Unaccounted Friction (lb),Gearbox Peak Existing (in-lb),Stroke,Measured Load TV (lbf),Calculate Buoyant Rod Weight (lbf),Measured Load SV (lbf),Calc. Fluid Load (lbf),Total Gaseous Liquid Column HT (TVD) (ft),Equivalent Gas Free Liquid HT (TVD) (ft), 1343664010quid (%),Pump Intake Pressure (psi (g)),
9.875,08/27/16 - 10:46,AEB_10,3.500,2.500,4475.00,4475.00,0.04475,0.04475,10929.00,10929.00,X,40,1.05,X,640000,146.553,X,08/27/16 - 10:46,14881,8662,2116,-220,5.5,143.0,5.085,98.74,141.2,523.2,220.0,1042731.7,3,X,X,X,X,X,X,X,X,
9.875,12/21/16 - 10:15,AEB_10,3.500,2.250,4775.00,4775.00,0.04475,0.04475,10929.00,10929.00,X,40,1.05,X,640000,125.106,X,12/21/16 - 10:17,22384,7222,8689,-389,13.8,105.1,5.941,89.01,93.6,328.2,388.9,1388918.8,0,X,X,X,X,X,X,X,X,
9.875,12/25/16 - 09:36,AEB_10,3.500,2.250,4775.00,4775.00,0.04475,0.04475,10929.00,10929.00,X,40,1.05,X,640000,125.106,X,12/25/16 - 09:36,20478,7591,6572,-1429,5.9,109.5,5.960,36.83,40.3,141.8,1428.8,1199780.4,0,X,X,X,X,X,X,X,X,
9.875,01/19/17 - 11:50,AEB_10,2.875,1.750,6070.00,6070.00,0.04475,0.04475,10929.00,10929.00,X,40,1.05,X,640000,125.106,X,01/19/17 - 11:50,17669,8061,5130,-495,8.2,104.6,6.000,92.76,97.0,207.9,495.5,1115156.8,0,X,X,X,X,X,X,X,X,
9.875,01/29/17 - 14:59,AEB_10,2.875,1.750,6070.00,6070.00,0.04475,0.04475,10929.00,10929.00,X,40,1.05,X,640000,125.106,X,01/29/17 - 14:59,18297,8083,5709,-586,4.8,102.6,5.960,43.89,45.0,95.8,585.8,1160897.2,6,X,X,X,X,X,X,X,X,
9.875,02/21/17 - 09:34,AEB_10,2.875,1.750,6070.00,6070.00,0.04475,0.04475,10929.00,10929.00,X,40,1.05,X,640000,125.106,X,02/21/17 - 09:34,18272,8424,5643,-1307,4.2,100.4,5.980,36.20,36.3,77.6,1307.4,1159910.8,7,X,X,X,X,X,X,X,X,
9.875,07/17/17 - 08:55,AEB_10,2.875,1.750,6070.00,6070.00,0.04475,0.04475,10929.00,10929.00,X,40,1.05,X,640000,125.106,X,07/17/17 - 08:55,17602,9943,4998,-463,1.9,106.0,5.960,9.04,9.6,20.4,463.0,1114359.3,0,X,X,X,X,X,X,X,X,
9.875,10/31/17 - 10:02,AEB_10,2.875,1.750,6070.00,6070.00,0.04475,0.04475,10929.00,10929.00,X,40,1.05,X,640000,125.106,X,10/31/17 - 10:02,18648,9694,6156,-654,1.6,99.8,5.960,8.41,8.4,17.9,654.0,1176951.2,3,X,X,X,X,X,X,X,X,
9.875,07/03/18 - 10:23,AEB_10,2.875,1.750,6070.00,6070.00,0.04475,0.04475,10929.00,10929.00,X,40,1.05,X,640000,125.106,X,07/03/18 - 10:23,16565,10566,4278,-452,4.0,119.1,7.407,15.99,19.0,50.4,451.5,1049006.6,5,X,X,X,X,X,X,X,X,
9.625,05/13/14 - 10:17,AEB_4,3.500,2.250,3500.00,3500.00,0.035,0.035,10932.00,10932.00,X,40,1.05,X,640000,107.234,X,05/13/14 - 10:17,14483,6305,4001,-22,8.6,105.2,8.491,77.36,81.4,408.0,21.9,673086.4,6,X,X,X,X,X,X,X,X,
9.625,06/16/14 - 10:32,AEB_4,3.500,2.250,3500.00,3500.00,0.035,0.035,10932.00,10932.00,X,40,1.05,X,640000,77.370,X,X,X,X,X,X,X,X,X,X,X,X,X,X,X,X,X,X,X,180,34,19,16.7,
9.625,07/09/14 - 10:17,AEB_4,3.500,2.250,3500.00,3500.00,0.035,0.035,10932.00,10932.00,X,40,1.05,X,640000,123.167,X,07/09/14 - 10:17,16551,5747,5876,-610,13.8,114.3,8.257,75.24,86.0,419.0,610.2,931107.3,6,X,X,X,X,X,X,X,X,
9.625,02/13/16 - 16:59,AEB_4,3.500,2.250,4208.00,4208.00,0.035,0.035,10932.00,10932.00,35.0,40,1.05,X,640000,123.167,X,X,X,X,X,X,X,X,X,X,X,X,X,X,X,X,X,X,X,2505,2505,100,874.8,
9.625,07/28/16 - 14:10,AEB_4,3.500,2.250,4208.00,4208.00,0.035,0.035,10932.00,10932.00,35.0,40,1.05,X,640000,123.167,X,07/28/16 - 14:10,13287,7560,2428,-263,7.4,124.1,8.372,99.88,123.9,612.4,262.9,813482.4,0,12421,9262,11502,7752,X,X,X,X,
9.625,01/22/17 - 15:28,AEB_4,3.500,2.250,4200.00,4200.00,0.035,0.035,10932.00,10932.00,35.0,40,1.05,X,640000,123.167,X,01/22/17 - 15:28,19149,6476,6656,-71,16.5,113.7,8.295,86.54,98.4,481.8,71.2,1146915.6,4,X,X,X,X,X,X,X,X,
9.625,10/31/17 - 10:36,AEB_4,3.500,2.250,4200.00,4200.00,0.035,0.035,10932.00,10932.00,35.0,40,1.05,X,640000,123.167,X,10/31/17 - 10:36,17635,6519,5099,-305,13.7,115.1,8.295,95.29,109.7,537.2,305.4,986891.3,0,X,X,X,X,X,X,X,X,
9.625,04/16/18 - 10:45,AEB_4,3.500,2.250,4200.00,4200.00,0.035,0.035,10932.00,10932.00,35.0,40,1.05,X,640000,123.167,X,04/16/18 - 10:45,17768,6807,5049,-693,13.6,115.0,8.257,95.85,110.2,537.1,693.0,1028478.7,6,X,X,X,X,X,X,X,X,
El-Hamra\AEB-3c#5x.007,04/16/15 - 18:12,AEB-3c_5x,3.500,2.000,5400.00,5400.00,0.052,0.052,8300.00,8300.00,X,36.2,1.1,X,640000,107.234,50,X,X,X,X,X,X,X,X,X,X,X,X,X,X,X,X,X,X,521,425,82,135.2,
El-Hamra\AEB-3c#5x.014,04/21/15 - 09:09,AEB-3c_5x,3.500,2.000,5400.00,5400.00,0.052,0.052,8300.00,8300.00,X,36.2,1.1,X,640000,107.234,50,X,X,X,X,X,X,X,X,X,X,X,X,X,X,X,X,X,X,X,X,100,59.6,
El-Hamra\AEB-3c#5x.021,04/26/15 - 16:35,AEB-3c_5x,3.500,2.000,5400.00,5400.00,0.052,0.052,8300.00,8300.00,X,36.2,1.1,X,640000,107.234,50,X,X,X,X,X,X,X,X,X,X,X,X,X,X,X,X,X,X,402,402,100,138.6,
El-Hamra\AEB-3c#5x.028,05/19/15 - 17:02,AEB-3c_5x,3.500,2.000,5400.00,5400.00,0.052,0.052,8300.00,8300.00,X,36.2,1.1,X,640000,107.234,50,X,X,X,X,X,X,X,X,X,X,X,X,X,X,X,X,X,X,X,X,96,57.4,
El-Hamra\AEB-3c#5x.035,02/13/16 - 11:11,AEB-3c_5x,3.500,2.250,5530.00,5530.00,0.052,0.052,8300.00,8300.00,40.0,36.2,1.1,X,320000,100.000,50,02/13/16 - 11:11,14816,10439,956,-354,2.0,103.9,6.870,100.00,103.9,421.5,353.9,514936.9,0,X,X,X,X,X,X,X,X,
El-Hamra\AEB-3c#5x.042,08/07/17 - 08:50,AEB-3c_5x,3.500,2.250,5530.00,5530.00,0.052,0.052,8300.00,8300.00,40.0,36.2,1.1,X,320000,84.089,50,08/07/17 - 08:50,14646,9565,569,-604,2.6,86.9,8.738,100.00,86.9,448.3,603.8,604838.9,0,16044,12025,14485,10163,X,X,X,X,
El-Hamra\AEB-3c#5x.049,01/20/18 - 16:17,AEB-3c_5x,3.500,2.250,3150.00,3150.00,0.052,0.052,8300.00,8300.00,40.0,36.2,1.1,X,320000,84.089,50,01/20/18 - 16:22,10487,4910,1457,-705,2.8,87.1,8.824,100.00,87.1,453.7,705.4,822317.7,6,X,X,X,X,X,X,X,X,
El-Hamra\AEB-3C-1X.007,12/05/15 - 09:42,AEB-3C-1X,3.500,2.500,3780.00,3780.00,0.0378,0.0378,10646.00,10646.00,X,40,1.05,X,456000,144.000,50,12/05/15 - 09:42,8102,5609,962,-153,3.9,144.6,7.004,91.90,132.9,678.2,152.7,592502.9,5,X,X,X,X,X,X,X,X,
El-Hamra\AEB-3C-1X.014,08/11/16 - 11:54,AEB-3C-1X,3.500,2.500,3750.00,3750.00,0.0378,0.0378,10646.00,10646.00,X,40,1.05,X,456000,144.000,50,08/11/16 - 11:54,15482,5644,5173,-0,12.5,139.6,6.844,99.49,138.9,692.9,0.4,1047821.4,5,10025,8261,8767,8376,X,X,X,X,
El-Hamra\AEB-3C-1X.021,10/31/17 - 10:25,AEB-3C-1X,3.500,2.500,3837.00,3837.00,0.0378,0.0378,10646.00,10646.00,X,40,1.05,X,456000,144.000,50,10/31/17 - 10:25,17503,5330,7282,-260,17.8,138.0,6.977,99.61,137.4,698.8,260.3,1234583.1,0,X,X,X,X,X,X,X,X,
El-Hamra\AEB-3C-2X.005,04/02/16 - 13:56,AEB-3C-2X,3.500,2.750,3975.00,3975.00,0.04119,0.04119,10696.00,10696.00,35.0,40,1.05,X,640000,129.499,50,04/02/16 - 13:56,16090,6613,4959,-297,12.8,127.2,7.407,91.72,116.7,762.1,297.0,951028.5,5,X,X,X,X,X,X,X,X,
El-Hamra\AEB-3C-2X.012,08/11/16 - 12:09,AEB-3C-2X,3.500,2.750,3975.00,3975.00,0.04119,0.04119,10696.00,10696.00,35.0,40,1.05,X,640000,143.034,50,08/11/16 - 12:09,15673,5838,3851,-100,11.5,138.2,7.407,96.76,133.7,873.2,100.0,1024408.4,0,X,X,X,X,X,X,X,X,
El-Hamra\AEB-3C-2X.019,05/11/17 - 08:38,AEB-3C-2X,3.500,2.500,3850.00,3850.00,0.04119,0.04119,10696.00,10696.00,35.0,40,1.05,X,640000,128.701,50,05/11/17 - 08:38,10831,7214,358,-281,2.9,130.6,7.438,100.00,130.6,708.0,281.3,622290.1,10,X,X,X,X,X,X,X,X,
El-Hamra\AEB-3C-2X.026,09/30/17 - 20:56,AEB-3C-2X,3.500,2.500,3850.00,3850.00,0.04119,0.04119,10696.00,10696.00,35.0,40,1.05,X,640000,128.701,50,09/30/17 - 20:57,10708,7996,1141,-830,2.6,127.6,8.491,11.63,14.8,91.8,829.5,666065.5,0,9449,8698,9055,8771,X,X,X,X,
El-Hamra\AEB-3C-3X.001,04/21/15 - 09:46,AEB-3C-3X,3.500,2.500,4500.00,4500.00,0.045,0.045,10656.00,10656.00,X,40,1.05,X,456000,126.661,50,04/21/15 - 09:53,13816,7325,3054,-1403,6.4,117.4,5.769,94.51,111.0,466.6,1403.1,870252.6,6,X,X,X,X,3144,3144,100,1127.6,
El-Hamra\AEB-3C-3X.008,02/13/16 - 10:00,AEB-3C-3X,3.500,2.500,4500.00,4500.00,0.045,0.045,10656.00,10656.00,X,40,1.05,X,640000,125.106,50,02/13/16 - 10:00,15842,8170,3730,-711,7.4,115.6,5.921,96.09,111.1,479.2,710.9,908000.8,8,X,X,X,X,2136,2136,100,878.5,
El-Hamra\AEB-3C-3X.015,06/10/17 - 20:42,AEB-3C-3X,3.500,2.500,4500.00,4500.00,0.045,0.045,10656.00,10656.00,X,40,1.05,X,640000,125.106,50,06/10/17 - 20:42,15387,8003,3355,-518,6.6,117.8,5.788,95.81,112.8,476.0,518.4,882211.0,4,X,X,X,X,X,X,X,X,
El-Hamra\AEB-3C-3X.022,01/15/18 - 10:18,AEB-3C-3X,3.500,2.500,3375.00,3375.00,0.045,0.045,10656.00,10656.00,X,40,1.05,X,640000,146.553,50,01/15/18 - 10:18,15378,4872,5377,-622,12.2,137.2,5.788,98.07,134.6,567.7,622.3,1088620.5,0,X,X,X,X,X,X,X,X,
El-Hamra\AL##16.001,10/21/17 - 16:47,AL__16,2.875,1.750,5650.00,5650.00,0.05325,0.05325,X,X,X,40,1.05,X,228000,54.000,30,10/21/17 - 16:47,11723,9708,465,-182,0.6,57.4,7.143,100.00,57.4,146.5,181.5,300769.5,5,X,X,X,X,X,X,X,X,
7,04/29/16 - 16:44,AL_14,2.750,1.750,5585.00,5585.00,0.052875,0.052875,5825.00,5825.00,50.0,40,1.05,X,228000,74.000,X,04/29/16 - 16:44,15049,7822,4624,-197,5.1,63.5,6.977,94.28,59.9,149.2,197.0,581218.5,0,X,X,X,X,2709,2709,100,892.6,
7,12/22/16 - 09:35,AL_14,2.750,1.750,5575.00,5575.00,0.052875,0.052875,5825.00,5825.00,50.0,40,1.05,X,228000,74.000,X,12/22/16 - 09:35,11405,8757,459,-274,0.8,76.3,6.977,99.92,76.2,189.8,273.5,391311.9,16,12096,9862,11332,6222,X,X,X,X,
El-Hamra\AL#16 MB.005,04/12/16 - 08:58,AL_16 MB,2.875,1.750,6000.00,6000.00,0.055,0.055,6106.00,6106.00,X,40,1.05,X,228000,55.865,30,04/12/16 - 08:58,16254,9398,4992,-793,3.1,35.6,7.317,87.65,31.2,81.4,792.6,420215.0,14,X,X,X,X,2741,513,19,178.5,
El-Hamra\AL#16 MB.012,11/22/16 - 11:24,AL_16 MB,2.875,1.750,5675.00,5675.00,0.055,0.055,6106.00,6106.00,X,40,1.05,X,228000,55.865,30,11/22/16 - 11:27,16245,8531,5231,-872,3.5,36.8,7.115,94.08,34.7,88.0,872.0,446061.3,0,X,X,X,X,X,X,X,X,
El-Hamra\AL#16 MB.019,03/02/17 - 15:41,AL_16 MB,2.875,1.750,5650.00,5650.00,0.055,0.055,6106.00,6106.00,X,40,1.05,X,228000,55.865,30,03/02/17 - 15:41,17054,8264,5904,-1076,4.1,39.0,7.087,100.00,39.0,98.7,1076.3,471556.0,5,X,X,X,X,X,X,X,X,
El-Hamra\AL#16 MB.026,06/17/17 - 12:25,AL_16 MB,2.875,1.750,5650.00,5650.00,0.055,0.055,6106.00,6106.00,X,40,1.05,X,228000,55.865,30,06/17/17 - 12:25,10987,9649,341,-251,0.4,56.2,7.229,18.37,10.3,26.7,251.1,293041.4,13,X,X,X,X,X,X,X,X,
El-Hamra\AL#16 MB.027,06/17/17 - 22:38,AL_16 MB,2.875,1.750,5650.00,5650.00,0.055,0.055,6106.00,6106.00,X,40,1.05,X,228000,55.865,30,06/17/17 - 22:38,11657,9939,680,-355,0.7,54.9,7.171,17.57,9.6,24.7,355.2,301120.3,8,X,X,X,X,X,X,X,X,
El-Hamra\AL#16 MB.028,06/18/17 - 15:33,AL_16 MB,2.875,1.750,5650.00,5650.00,0.055,0.055,6106.00,6106.00,X,40,1.05,X,228000,55.865,30,X,X,X,X,X,X,X,X,X,X,X,X,X,X,X,X,X,X,X,X,X,X,
El-Hamra\AL#16 MB.029,08/29/17 - 09:50,X,0.000,0.000,0.00,0.00,0,0,0.00,0.00,0.0,0,0,X,0,0.000,0,X,X,X,X,X,X,X,X,X,X,X,X,X,X,X,X,X,X,X,X,X,X,
El-Hamra\AL#16 MB.030,10/21/17 - 16:42,AL_16,2.875,1.750,5650.00,5650.00,0,0,0.00,0.00,0.0,0,0,X,228000,54.000,30,X,X,X,X,X,X,X,X,X,X,X,X,X,X,X,X,X,X,X,X,X,X,
El-Hamra\AL#16 MB.031,10/29/17 - 09:27,AL_16,3.500,X,5650.00,5650.00,0,0,X,X,X,40,1.05,X,228000,51.724,30,X,X,X,X,X,X,X,X,X,X,X,X,X,X,X,X,X,X,X,X,X,X,
El-Hamra\AL#17 BMB.001,04/16/15 - 10:22,AL_17 BMB,3.500,2.250,3721.00,3721.00,0.03721,0.03721,6268.00,6268.00,X,40,1.05,X,228000,74.000,30,04/16/15 - 10:22,7263,5557,253,-189,0.7,74.6,9.137,11.27,8.4,45.4,189.5,259408.8,6,X,X,X,X,X,X,X,X,
El-Hamra\AL#17 BMB.006,12/21/15 - 09:32,AL_17 BMB,3.500,2.250,3721.00,3721.00,0.03721,0.03721,6268.00,6268.00,X,40,1.05,X,228000,74.000,30,X,X,X,X,X,X,X,X,X,X,X,X,X,X,7180,6247,6730,6732,X,X,X,X,
El-Hamra\AL#17 BMB.011,01/29/17 - 14:47,AL_17 BMB,3.500,2.250,3725.00,3725.00,0.03721,0.03721,6268.00,6268.00,X,40,1.05,X,228000,74.000,30,01/29/17 - 14:47,10292,5560,2499,-68,4.7,72.1,9.278,97.59,70.4,385.5,68.2,356057.1,12,X,X,X,X,X,X,X,X,
El-Hamra\AL#17 BMB.016,08/26/17 - 16:48,AL_17 BMB,3.500,2.250,3725.00,3725.00,0.03721,0.03721,6268.00,6268.00,X,40,1.05,X,228000,74.000,30,08/26/17 - 16:48,7470,6135,444,-317,0.5,74.2,9.375,7.37,5.5,30.2,316.5,267453.3,0,X,X,X,X,X,X,X,X,
El-Hamra\AL#18 LB.001,03/17/14 - 08:47,AL_18 LB,2.875,2.000,4929.00,4929.00,0.04625,0.04625,6146.00,6146.00,X,40,1.05,X,228000,64.000,30,03/17/14 - 08:47,10003,8900,485,-340,0.6,63.5,7.200,37.41,23.8,79.8,339.9,318084.4,0,X,X,X,X,X,X,X,X,
El-Hamra\AL#18 LB.006,03/23/16 - 11:47,AL_18 LB,2.875,2.000,4750.00,4750.00,0.04625,0.04625,6146.00,6146.00,X,40,1.05,X,228000,64.000,30,03/23/16 - 11:47,9882,8208,502,-329,0.6,62.5,6.844,3.55,2.2,7.1,329.1,308373.2,1,X,X,X,X,X,X,X,X,
El-Hamra\AL#18 LB.011,06/24/16 - 05:34,AL_18 LB,2.875,2.000,4600.00,4600.00,0.04625,0.04625,6146.00,6146.00,X,40,1.05,X,228000,64.000,30,06/24/16 - 05:34,9042,7636,853,-608,1.1,61.3,6.923,53.28,32.7,105.4,607.7,294259.0,4,6545,8100,6495,6575,X,X,X,X,
El-Hamra\AL#20 RS.004,12/03/15 - 11:40,AL_20 RS,2.875,2.000,3930.00,3930.00,0.0393,0.0393,6270.00,6270.00,X,40,1.05,X,228000,74.000,30,X,X,X,X,X,X,X,X,X,X,X,X,X,X,X,X,X,X,3717,3717,100,1214.8,
El-Hamra\AL#21.004,12/03/15 - 11:17,AL_21,2.875,2.000,4975.00,4975.00,0.04975,0.04975,5663.00,5663.00,X,40,1.05,X,228000,74.000,30,X,X,X,X,X,X,X,X,X,X,X,X,X,X,X,X,X,X,2320,2320,100,773.5,
El-Hamra\AL#21.009,07/04/16 - 08:51,AL_21,2.875,2.000,4975.00,4975.00,0.04975,0.04975,5663.00,5663.00,X,40,1.05,X,228000,74.000,30,07/04/16 - 08:51,14915,7472,4629,-256,4.8,58.7,7.004,92.69,54.4,177.7,255.6,583996.3,4,X,X,X,X,X,X,X,X,
El-Hamra\AL#21.014,10/28/16 - 14:59,AL_21,2.875,2.000,4375.00,4375.00,0.04975,0.04975,5663.00,5663.00,X,40,1.05,X,228000,74.000,30,10/28/16 - 14:59,8471,7389,772,-576,0.8,72.6,7.059,30.86,22.4,73.7,576.2,319791.4,1,4149,7669,-2201,6254,X,X,X,X,
El-Hamra\AL#21.019,02/18/17 - 16:54,AL_21,2.875,2.000,4375.00,4375.00,0.04975,0.04975,5663.00,5663.00,X,40,1.05,X,228000,74.000,30,02/18/17 - 16:54,9590,6444,1610,-549,2.2,74.0,6.923,100.00,74.0,239.0,549.0,349991.5,0,X,X,X,X,X,X,X,X,
El-Hamra\AL#21.024,05/24/17 - 08:13,AL_21,2.875,2.000,4325.00,4325.00,0.04975,0.04975,5663.00,5663.00,X,40,1.05,X,228000,74.000,30,05/24/17 - 08:13,9349,7198,1037,-26,2.0,75.3,6.897,99.58,75.0,241.1,25.6,358585.5,4,X,X,X,X,X,X,X,X,
El-Hamra\AL#21.029,09/18/17 - 15:46,AL_21,2.875,2.000,4150.00,4150.00,0.04975,0.04975,5663.00,5663.00,X,40,1.05,X,228000,74.000,30,09/18/17 - 15:46,13999,5701,5590,-530,7.2,62.7,8.182,95.18,59.7,227.8,529.6,548569.5,12,X,X,X,X,X,X,X,X,
El-Hamra\AL#21.034,12/09/17 - 08:43,AL_21,2.875,2.000,4150.00,4150.00,0.04975,0.04975,5663.00,5663.00,X,40,1.05,X,228000,74.000,30,12/09/17 - 08:43,8238,6538,91,-608,0.3,76.4,7.031,100.00,76.4,250.4,607.5,290814.9,10,9611,7506,8458,5932,X,X,X,X,
El-Hamra\AL#21.039,03/17/18 - 10:30,AL_21,2.875,2.000,4150.00,4150.00,0.04975,0.04975,5663.00,5663.00,X,40,1.05,X,228000,74.000,30,03/17/18 - 10:30,13058,5809,3845,-80,4.6,68.2,7.031,92.94,63.4,208.0,79.7,499544.2,6,X,X,X,X,X,X,X,X,
El-Hamra\AL#22 AR.001,04/08/14 - 18:17,AL_22 AR,2.875,1.750,5607.00,5607.00,0.053035,0.053035,5757.00,5757.00,X,40,1.05,X,320000,71.429,50,04/08/14 - 18:17,11558,9694,772,-417,0.7,72.3,9.184,8.53,6.2,20.2,416.8,392665.9,7,X,X,X,X,X,X,X,X,
El-Hamra\AL#22 AR.006,09/21/14 - 16:57,AL_22 AR,2.875,1.750,5607.00,5607.00,0.053035,0.053035,5757.00,5757.00,X,40,1.05,X,320000,71.429,50,X,X,X,X,X,X,X,X,X,X,X,X,X,X,X,X,X,X,3474,3474,100,20272.3,
El-Hamra\AL#22 AR.011,02/07/16 - 15:30,AL_22 AR,2.875,1.750,5607.00,5607.00,0.053035,0.053035,5757.00,5757.00,X,40,1.05,X,320000,71.429,50,02/07/16 - 15:30,11677,9473,1344,-664,1.5,67.1,7.059,56.02,37.6,94.8,664.2,398909.9,5,X,X,X,X,X,X,X,X,
El-Hamra\AL#22 AR.016,09/06/16 - 09:01,AL_22 AR,2.875,1.750,5607.00,5607.00,0.053035,0.053035,5757.00,5757.00,X,40,1.05,X,320000,71.429,50,09/06/16 - 09:01,11397,8410,212,-1225,0.4,78.5,7.171,100.00,78.5,201.0,1225.5,363267.5,6,X,X,X,X,X,X,X,X,
El-Hamra\AL#22 AR.021,05/10/17 - 17:57,AL_22 AR,2.875,1.750,5525.00,5525.00,0.053035,0.053035,5757.00,5757.00,X,40,1.05,X,228000,64.000,50,05/10/17 - 17:57,14483,8177,3778,-65,3.6,54.6,7.059,94.28,51.5,129.8,65.0,481337.6,4,X,X,X,X,X,X,X,X,
El-Hamra\AL#22 AR.026,07/09/17 - 17:40,AL_22 AR,2.875,1.750,5525.00,5525.00,0.053035,0.053035,5757.00,5757.00,X,40,1.05,X,228000,64.000,50,07/09/17 - 17:40,15565,8133,4903,-135,3.9,49.2,7.087,90.22,44.4,112.4,135.3,507743.2,6,X,X,X,X,X,X,X,X,
El-Hamra\AL#22 AR.031,02/21/18 - 10:27,AL_22 AR,2.875,1.750,5525.00,5525.00,0.053035,0.053035,5757.00,5757.00,X,40,1.05,X,228000,64.000,50,02/21/18 - 10:28,10803,8547,443,-367,1.2,66.4,7.258,100.00,66.4,172.0,367.5,343589.3,0,X,X,X,X,X,X,X,X,
El-Hamra\AL#22 AR.036,07/13/18 - 16:58,AL_22 AR,2.875,1.750,5525.00,5525.00,0.053035,0.053035,5757.00,5757.00,X,40,1.05,X,228000,64.000,50,X,X,X,X,X,X,X,X,X,X,X,X,X,X,X,X,X,X,3594,3594,100,1163.3,
7.00,02/15/16 - 11:04,AL_23,2.875,2.000,3705.00,3705.00,0.03704,0.03704,6350.00,6350.00,X,40,1.05,X,228000,74.000,X,02/15/16 - 11:04,11668,4836,3116,-295,4.3,77.1,9.091,99.60,76.8,325.6,294.7,228132.6,14,X,X,X,X,X,X,X,X,
7.00,09/15/16 - 17:36,AL_23,2.875,2.000,3705.00,3705.00,0.03704,0.03704,6350.00,6350.00,X,40,1.05,X,228000,74.000,X,09/15/16 - 17:36,8535,5622,877,-417,0.8,78.8,9.045,100.00,78.8,332.6,416.6,211950.2,0,X,X,X,X,X,X,X,X,
7.00,11/24/16 - 16:28,AL_23,2.875,2.000,2891.00,2891.00,0.03704,0.03704,6350.00,6350.00,X,40,1.05,X,228000,74.000,X,11/24/16 - 16:31,6260,5159,809,-566,0.9,72.3,9.375,12.21,8.8,38.6,566.3,227578.3,0,6156,5225,5404,4132,X,X,X,X,
7.00,03/27/17 - 10:20,AL_23,2.875,2.000,2891.00,2891.00,0.03704,0.03704,6350.00,6350.00,X,40,1.05,X,228000,74.000,X,03/27/17 - 10:20,8384,4129,1800,-214,2.5,77.4,9.326,100.00,77.4,336.5,213.9,258256.6,10,X,X,X,X,X,X,X,X,
7.00,09/27/17 - 08:28,AL_23,2.875,2.500,3100.00,3100.00,0.03704,0.03704,6350.00,6350.00,X,40,1.05,X,228000,74.000,X,09/27/17 - 08:28,9192,4252,2406,-308,4.2,74.9,9.278,100.00,74.9,506.5,308.4,259204.9,7,7878,5515,7606,6924,X,X,X,X,
7.00,02/17/18 - 15:41,AL_23,2.875,2.500,3100.00,3100.00,0.03704,0.03704,6350.00,6350.00,X,40,1.05,X,228000,74.000,X,02/17/18 - 15:47,7773,4693,1768,-1269,2.1,68.6,9.278,14.53,10.0,67.4,1268.9,220986.4,0,7190,5515,3288,6924,X,X,X,X,
7.00,03/25/18 - 08:58,AL_23,2.875,2.500,2850.00,2850.00,0.03704,0.03704,6350.00,6350.00,X,40,1.05,X,228000,74.000,X,X,X,X,X,X,X,X,X,X,X,X,X,X,X,X,X,X,X,X,X,X,X,
El-Hamra\AL#24 AR.001,06/24/14 - 17:04,AL_24 BMB,2.875,1.750,5576.00,5576.00,0.05288,0.05288,6324.00,6324.00,X,40,1.05,X,228000,54.000,30,06/24/14 - 17:13,15054,8020,4532,-184,2.6,39.8,7.031,74.20,29.5,74.2,184.1,405745.7,14,X,X,X,X,X,X,X,X,
El-Hamra\AL#24 AR.006,01/16/16 - 14:56,AL_24 BMB,2.875,1.500,6250.00,6250.00,0.05288,0.05288,6324.00,6324.00,X,40,1.05,X,228000,54.000,30,01/16/16 - 14:56,13169,10290,1045,-234,1.1,52.9,6.923,99.87,52.8,96.0,233.7,329687.6,17,X,X,X,X,X,X,X,X,
El-Hamra\AL#24 AR.011,03/28/16 - 14:33,AL_24 BMB,2.875,1.750,6250.00,6250.00,0.05288,0.05288,6324.00,6324.00,40.0,40,1.05,X,228000,54.000,30,03/28/16 - 14:33,19895,9942,7923,-437,3.7,31.3,6.870,X,29.7,73.0,437.3,511059.7,0,X,X,X,X,X,X,X,X,
El-Hamra\AL#24 AR.016,06/11/16 - 09:06,AL_24 BMB,2.875,1.750,6250.00,6250.00,0.05288,0.05288,6324.00,6324.00,40.0,40,1.05,X,228000,54.000,30,06/11/16 - 09:06,18132,9592,6141,-610,3.3,32.1,6.897,100.00,32.1,79.1,610.0,481776.4,9,X,X,X,X,X,X,X,X,
El-Hamra\AL#24 AR.021,11/19/16 - 08:48,AL_24 BMB,2.875,1.500,6050.00,6050.00,0.05288,0.05288,6324.00,6324.00,40.0,40,1.05,X,228000,54.019,30,11/19/16 - 08:48,18200,9457,6320,-510,3.7,35.1,6.897,99.99,35.1,63.5,510.4,490236.4,2,X,X,X,X,X,X,X,X,
El-Hamra\AL#24 AR.026,03/09/17 - 10:37,AL_24 BMB,2.875,1.500,6050.00,6050.00,0.05288,0.05288,6324.00,6324.00,40.0,40,1.05,X,228000,54.019,30,03/09/17 - 10:37,17797,9443,5967,-470,3.1,33.5,6.818,92.28,30.9,55.3,469.6,459424.8,11,X,X,X,X,X,X,X,X,
El-Hamra\AL#24 AR.031,09/18/17 - 11:40,AL_24 BMB,2.875,1.500,6050.00,6050.00,0.05288,0.05288,6324.00,6324.00,40.0,40,1.05,X,228000,56.229,30,09/18/17 - 11:40,11436,10559,837,-583,0.6,52.9,7.171,38.68,20.5,38.5,583.0,313523.4,13,X,X,X,X,X,X,X,X,
El-Hamra\AL#25.001,04/27/15 - 17:10,AL_25 R.S,3.500,2.500,3850.00,3850.00,0.0385,0.0385,6316.00,6316.00,X